motion_name,threshold,trigger,ax_lambda,ay_lambda,az_lambda,gx_lambda,gy_lambda,gz_lambda
afzal-squat-bar,1500,10,16,16,16,500,500,500
index,ax,ay,az,gx,gy,gz,mx,my,mz
0,0.28125,0.796875,0.5625,0,-3.90625,0,0,0,0
1,0.296875,0.78125,0.5625,0,0,0,0,0,0
2,0.296875,0.796875,0.59375,0,0,0,0,0,0
3,0.296875,0.796875,0.546875,0,0,0,0,0,0
4,0.3125,0.78125,0.578125,-1.953125,0,0,0,0,0
5,0.296875,0.78125,0.5625,0,0,0,0,0,0
6,0.296875,0.796875,0.53125,0,-3.90625,0,0,0,0
7,0.3125,0.78125,0.59375,0,0,0,0,0,0
8,0.296875,0.765625,0.546875,-1.953125,-1.953125,-1.953125,0,0,0
9,0.296875,0.765625,0.546875,0,0,0,0,0,0
10,0.296875,0.75,0.515625,-3.90625,-5.859375,-1.953125,0,0,0
11,0.28125,0.71875,0.515625,-3.90625,-5.859375,-3.90625,0,0,0
12,0.296875,0.703125,0.515625,-3.90625,-5.859375,-1.953125,0,0,0
13,0.28125,0.703125,0.484375,-7.8125,-3.90625,-1.953125,0,0,0
14,0.296875,0.6875,0.484375,-7.8125,-1.953125,-1.953125,0,0,0
15,0.3125,0.6875,0.53125,-7.8125,0,0,0,0,0
16,0.296875,0.71875,0.546875,-9.765625,0,0,0,0,0
17,0.28125,0.75,0.578125,-11.71875,1.953125,-1.953125,0,0,0
18,0.265625,0.71875,0.5625,-15.625,1.953125,-1.953125,0,0,0
19,0.296875,0.65625,0.5625,-11.71875,0,-3.90625,0,0,0
20,0.28125,0.671875,0.6875,-9.765625,0,0,0,0,0
21,0.265625,0.71875,0.625,-7.8125,0,0,0,0,0
22,0.3125,0.59375,0.71875,-1.953125,0,0,0,0,0
23,0.3125,0.625,0.6875,-5.859375,0,0,0,0,0
24,0.28125,0.65625,0.75,-5.859375,0,0,0,0,0
25,0.265625,0.625,0.640625,-5.859375,1.953125,0,0,0,0
26,0.25,0.578125,0.640625,-3.90625,1.953125,0,0,0,0
27,0.265625,0.5625,0.71875,0,-1.953125,0,0,0,0
28,0.296875,0.6875,0.796875,0,-3.90625,0,0,0,0
29,0.296875,0.6875,0.828125,0,-1.953125,-1.953125,0,0,0
30,0.328125,0.6875,0.890625,1.953125,0,0,0,0,0
31,0.296875,0.734375,0.84375,0,0,0,0,0,0
32,0.28125,0.703125,0.890625,-1.953125,1.953125,0,0,0,0
33,0.3125,0.703125,0.875,-5.859375,1.953125,0,0,0,0
34,0.3125,0.703125,0.828125,-7.8125,0,0,0,0,0
35,0.265625,0.609375,0.890625,-1.953125,1.953125,0,0,0,0
36,0.28125,0.6875,0.796875,-3.90625,1.953125,-1.953125,0,0,0
37,0.28125,0.671875,0.90625,-3.90625,0,0,0,0,0
38,0.296875,0.734375,0.921875,-3.90625,0,0,0,0,0
39,0.265625,0.625,0.9375,-3.90625,7.8125,0,0,0,0
40,0.265625,0.65625,0.8125,-5.859375,5.859375,0,0,0,0
41,0.25,0.546875,0.78125,0,0,0,0,0,0
42,0.234375,0.5625,0.84375,1.953125,0,0,0,0,0
43,0.3125,0.75,0.9375,7.8125,-1.953125,3.90625,0,0,0
44,0.3125,0.75,0.9375,5.859375,-1.953125,1.953125,0,0,0
45,0.28125,0.703125,0.84375,3.90625,0,0,0,0,0
46,0.265625,0.625,0.875,3.90625,1.953125,1.953125,0,0,0
47,0.234375,0.609375,0.78125,3.90625,0,1.953125,0,0,0
48,0.234375,0.59375,0.75,11.71875,0,1.953125,0,0,0
49,0.296875,0.75,0.703125,7.8125,0,1.953125,0,0,0
50,0.265625,0.625,0.78125,9.765625,-1.953125,1.953125,0,0,0
51,0.296875,0.71875,0.75,9.765625,0,3.90625,0,0,0
52,0.3125,0.71875,0.671875,5.859375,1.953125,1.953125,0,0,0
53,0.296875,0.65625,0.65625,7.8125,0,1.953125,0,0,0
54,0.28125,0.640625,0.609375,3.90625,0,1.953125,0,0,0
55,0.296875,0.6875,0.578125,3.90625,0,1.953125,0,0,0
56,0.3125,0.65625,0.5625,7.8125,-1.953125,3.90625,0,0,0
57,0.3125,0.671875,0.484375,7.8125,-1.953125,1.953125,0,0,0
58,0.234375,0.53125,0.34375,0,0,0,0,0,0
59,0.25,0.5625,0.484375,1.953125,0,0,0,0,0
60,0.296875,0.65625,0.53125,1.953125,0,1.953125,0,0,0
61,0.34375,0.78125,0.625,1.953125,-1.953125,3.90625,0,0,0
62,0.34375,0.78125,0.625,1.953125,-1.953125,1.953125,0,0,0
63,0.34375,0.75,0.640625,1.953125,0,0,0,0,0
64,0.328125,0.765625,0.546875,1.953125,0,0,0,0,0
65,0.359375,0.71875,0.609375,0,0,0,0,0,0
66,0.34375,0.734375,0.5625,0,-3.90625,0,0,0,0
67,0.390625,0.640625,0.578125,0,-1.953125,0,0,0,0
68,0.25,0.5625,0.4375,-7.8125,0,-7.8125,0,0,0
69,0.234375,0.515625,0.4375,-9.765625,3.90625,-5.859375,0,0,0
70,0.25,0.515625,0.484375,-7.8125,0,-3.90625,0,0,0
71,0.265625,0.59375,0.515625,-5.859375,0,0,0,0,0
72,0.296875,0.609375,0.609375,-5.859375,1.953125,-1.953125,0,0,0
73,0.296875,0.6875,0.609375,-7.8125,1.953125,-3.90625,0,0,0
74,0.3125,0.671875,0.71875,-7.8125,0,-3.90625,0,0,0
75,0.3125,0.671875,0.734375,-9.765625,5.859375,-1.953125,0,0,0
76,0.265625,0.703125,0.65625,-7.8125,1.953125,-1.953125,0,0,0
77,0.28125,0.65625,0.75,-7.8125,0,-3.90625,0,0,0
78,0.296875,0.640625,0.8125,-5.859375,0,0,0,0,0
79,0.265625,0.6875,0.859375,-3.90625,1.953125,-1.953125,0,0,0
80,0.28125,0.75,0.84375,-5.859375,0,0,0,0,0
81,0.34375,0.609375,0.859375,-7.8125,0,0,0,0,0
82,0.296875,0.609375,0.890625,-7.8125,0,0,0,0,0
83,0.28125,0.59375,0.90625,-5.859375,0,-1.953125,0,0,0
84,0.265625,0.578125,0.9375,-5.859375,0,-1.953125,0,0,0
85,0.25,0.640625,0.90625,-5.859375,1.953125,0,0,0,0
86,0.21875,0.625,0.90625,0,0,0,0,0,0
87,0.265625,0.59375,0.890625,1.953125,-1.953125,1.953125,0,0,0
88,0.265625,0.609375,0.9375,1.953125,0,1.953125,0,0,0
89,0.28125,0.65625,0.90625,0,0,0,0,0,0
90,0.265625,0.671875,0.90625,0,0,0,0,0,0
91,0.234375,0.546875,0.828125,0,0,0,0,0,0
92,0.25,0.578125,0.90625,1.953125,0,0,0,0,0
93,0.28125,0.59375,0.96875,3.90625,0,0,0,0,0
94,0.296875,0.6875,1,3.90625,0,1.953125,0,0,0
95,0.296875,0.734375,1.046875,5.859375,0,1.953125,0,0,0
96,0.265625,0.734375,1,3.90625,1.953125,0,0,0,0
97,0.25,0.65625,0.953125,3.90625,1.953125,1.953125,0,0,0
98,0.25,0.625,0.78125,5.859375,0,3.90625,0,0,0
99,0.25,0.625,0.78125,7.8125,0,3.90625,0,0,0
100,0.265625,0.625,0.765625,7.8125,0,1.953125,0,0,0
101,0.28125,0.65625,0.78125,7.8125,0,1.953125,0,0,0
102,0.28125,0.671875,0.828125,7.8125,0,3.90625,0,0,0
103,0.296875,0.671875,0.78125,9.765625,0,3.90625,0,0,0
104,0.28125,0.71875,0.703125,7.8125,0,5.859375,0,0,0
105,0.234375,0.703125,0.671875,7.8125,0,3.90625,0,0,0
106,0.28125,0.640625,0.671875,11.71875,-1.953125,3.90625,0,0,0
107,0.328125,0.75,0.5625,9.765625,-1.953125,3.90625,0,0,0
108,0.3125,0.5625,0.484375,11.71875,-5.859375,3.90625,0,0,0
109,0.265625,0.546875,0.484375,11.71875,-3.90625,3.90625,0,0,0
110,0.25,0.53125,0.40625,11.71875,-1.953125,1.953125,0,0,0
111,0.21875,0.46875,0.390625,5.859375,0,0,0,0,0
112,0.265625,0.53125,0.4375,1.953125,0,1.953125,0,0,0
113,0.328125,0.84375,0.515625,3.90625,0,3.90625,0,0,0
114,0.359375,0.8125,0.609375,1.953125,0,3.90625,0,0,0
115,0.390625,0.796875,0.546875,-1.953125,0,0,0,0,0
116,0.328125,0.71875,0.40625,-1.953125,-1.953125,-3.90625,0,0,0
117,0.28125,0.59375,0.40625,0,-1.953125,-1.953125,0,0,0
118,0.25,0.578125,0.234375,0,-5.859375,-5.859375,0,0,0
119,0.3125,0.65625,0.375,-9.765625,0,0,0,0,0
120,0.265625,0.65625,0.46875,-5.859375,0,-3.90625,0,0,0
121,0.3125,0.765625,0.59375,-13.671875,1.953125,-1.953125,0,0,0
122,0.296875,0.703125,0.671875,-9.765625,1.953125,-3.90625,0,0,0
123,0.3125,0.71875,0.75,-11.71875,3.90625,-1.953125,0,0,0
124,0.265625,0.6875,0.75,-7.8125,0,0,0,0,0
125,0.25,0.734375,0.8125,-5.859375,0,0,0,0,0
126,0.296875,0.671875,0.875,-9.765625,1.953125,-1.953125,0,0,0
127,0.296875,0.640625,0.859375,-5.859375,0,-1.953125,0,0,0
128,0.28125,0.609375,0.859375,-5.859375,-1.953125,0,0,0,0
129,0.234375,0.59375,0.9375,0,0,-1.953125,0,0,0
130,0.265625,0.6875,0.828125,0,-1.953125,-1.953125,0,0,0
131,0.28125,0.6875,0.859375,0,0,0,0,0,0
132,0.3125,0.6875,0.859375,1.953125,-3.90625,0,0,0,0
133,0.265625,0.640625,0.8125,-3.90625,1.953125,-1.953125,0,0,0
134,0.25,0.578125,0.765625,-1.953125,0,-1.953125,0,0,0
135,0.28125,0.609375,0.84375,1.953125,0,0,0,0,0
136,0.328125,0.734375,1.03125,0,1.953125,1.953125,0,0,0
137,0.296875,0.734375,0.96875,0,1.953125,0,0,0,0
138,0.28125,0.625,0.84375,5.859375,0,1.953125,0,0,0
139,0.296875,0.671875,0.765625,9.765625,-1.953125,1.953125,0,0,0
140,0.296875,0.703125,0.78125,5.859375,1.953125,1.953125,0,0,0
141,0.296875,0.671875,0.71875,9.765625,0,1.953125,0,0,0
142,0.28125,0.53125,0.484375,13.671875,-3.90625,1.953125,0,0,0
143,0.28125,0.59375,0.453125,13.671875,-5.859375,3.90625,0,0,0
144,0.25,0.5,0.46875,11.71875,-1.953125,1.953125,0,0,0
145,0.34375,0.78125,0.484375,1.953125,-1.953125,0,0,0,0
146,0.34375,0.78125,0.484375,1.953125,-1.953125,0,0,0,0
147,0.328125,0.71875,0.46875,0,-3.90625,0,0,0,0
148,0.3125,0.671875,0.46875,0,-3.90625,0,0,0,0
149,0.25,0.546875,0.375,-1.953125,0,-3.90625,0,0,0
150,0.265625,0.5,0.375,-1.953125,0,0,0,0,0
151,0.25,0.578125,0.375,-1.953125,0,0,0,0,0
152,0.3125,0.640625,0.453125,-3.90625,1.953125,0,0,0,0
153,0.3125,0.71875,0.546875,-11.71875,7.8125,-3.90625,0,0,0
154,0.3125,0.71875,0.546875,-11.71875,3.90625,-3.90625,0,0,0
155,0.296875,0.671875,0.578125,-5.859375,0,-1.953125,0,0,0
156,0.328125,0.765625,0.65625,-1.953125,-1.953125,0,0,0,0
157,0.34375,0.703125,0.734375,-1.953125,0,0,0,0,0
158,0.3125,0.8125,0.75,-5.859375,1.953125,-1.953125,0,0,0
159,0.34375,0.78125,0.765625,-7.8125,0,-1.953125,0,0,0
160,0.390625,0.75,0.796875,-7.8125,1.953125,0,0,0,0
161,0.390625,0.75,0.796875,-7.8125,1.953125,0,0,0,0
162,0.328125,0.71875,0.828125,-11.71875,1.953125,-3.90625,0,0,0
163,0.3125,0.6875,0.828125,-5.859375,0,-3.90625,0,0,0
164,0.296875,0.71875,0.828125,0,-3.90625,0,0,0,0
165,0.296875,0.6875,0.859375,1.953125,-1.953125,0,0,0,0
166,0.296875,0.75,0.828125,0,0,0,0,0,0
167,0.328125,0.734375,0.8125,0,0,0,0,0,0
168,0.296875,0.734375,0.8125,-1.953125,0,-1.953125,0,0,0
169,0.3125,0.703125,0.796875,-3.90625,0,-1.953125,0,0,0
170,0.28125,0.625,0.765625,3.90625,0,0,0,0,0
171,0.3125,0.734375,0.828125,3.90625,0,0,0,0,0
172,0.3125,0.78125,0.921875,3.90625,0,0,0,0,0
173,0.375,0.84375,0.953125,1.953125,0,1.953125,0,0,0
174,0.359375,0.828125,0.90625,1.953125,0,0,0,0,0
175,0.34375,0.8125,0.890625,0,0,0,0,0,0
176,0.3125,0.75,0.84375,0,1.953125,0,0,0,0
177,0.296875,0.71875,0.796875,0,0,0,0,0,0
178,0.28125,0.703125,0.765625,7.8125,0,0,0,0,0
179,0.28125,0.703125,0.765625,7.8125,0,0,0,0,0
180,0.3125,0.734375,0.75,7.8125,-1.953125,1.953125,0,0,0
181,0.3125,0.765625,0.75,5.859375,0,1.953125,0,0,0
182,0.3125,0.71875,0.703125,7.8125,0,1.953125,0,0,0
183,0.3125,0.6875,0.671875,5.859375,0,1.953125,0,0,0
184,0.296875,0.65625,0.625,9.765625,0,1.953125,0,0,0
185,0.296875,0.59375,0.546875,9.765625,-1.953125,1.953125,0,0,0
186,0.296875,0.609375,0.46875,7.8125,-3.90625,1.953125,0,0,0
187,0.265625,0.484375,0.453125,7.8125,0,1.953125,0,0,0
188,0.25,0.578125,0.390625,5.859375,1.953125,3.90625,0,0,0
189,0.28125,0.5625,0.453125,3.90625,1.953125,3.90625,0,0,0
190,0.3125,0.640625,0.5,1.953125,1.953125,3.90625,0,0,0
191,0.328125,0.765625,0.484375,0,1.953125,3.90625,0,0,0
192,0.375,0.796875,0.4375,1.953125,0,1.953125,0,0,0
193,0.359375,0.8125,0.53125,1.953125,-1.953125,0,0,0,0
194,0.375,0.765625,0.625,0,0,0,0,0,0
195,0.390625,0.828125,0.46875,1.953125,1.953125,1.953125,0,0,0
196,0.375,0.734375,0.515625,-1.953125,0,-1.953125,0,0,0
197,0.3125,0.59375,0.40625,0,-3.90625,-1.953125,0,0,0
198,0.28125,0.5625,0.390625,-3.90625,1.953125,0,0,0,0
199,0.328125,0.53125,0.515625,0,0,0,0,0,0
200,0.3125,0.703125,0.5,-1.953125,0,3.90625,0,0,0
201,0.34375,0.78125,0.578125,-13.671875,5.859375,-1.953125,0,0,0
202,0.296875,0.703125,0.609375,-11.71875,5.859375,-3.90625,0,0,0
203,0.359375,0.8125,0.640625,0,0,0,0,0,0
204,0.359375,0.796875,0.734375,-9.765625,3.90625,-1.953125,0,0,0
205,0.3125,0.703125,0.796875,-3.90625,0,0,0,0,0
206,0.34375,0.703125,0.796875,-5.859375,0,-1.953125,0,0,0
207,0.3125,0.65625,0.828125,-1.953125,1.953125,-1.953125,0,0,0
208,0.3125,0.75,0.765625,0,-1.953125,-1.953125,0,0,0
209,0.328125,0.71875,0.84375,-1.953125,0,0,0,0,0
210,0.296875,0.703125,0.84375,-3.90625,3.90625,-1.953125,0,0,0
211,0.296875,0.671875,0.796875,1.953125,0,0,0,0,0
212,0.296875,0.703125,0.828125,1.953125,0,0,0,0,0
213,0.34375,0.796875,0.84375,1.953125,-1.953125,0,0,0,0
214,0.34375,0.71875,0.875,0,0,0,0,0,0
215,0.3125,0.703125,0.734375,5.859375,-1.953125,1.953125,0,0,0
216,0.328125,0.71875,0.78125,5.859375,0,1.953125,0,0,0
217,0.296875,0.6875,0.734375,3.90625,0,0,0,0,0
218,0.3125,0.734375,0.6875,3.90625,0,1.953125,0,0,0
219,0.3125,0.625,0.59375,7.8125,-1.953125,0,0,0,0
220,0.25,0.546875,0.5,11.71875,-1.953125,1.953125,0,0,0
221,0.28125,0.609375,0.421875,7.8125,0,1.953125,0,0,0
222,0.265625,0.59375,0.421875,1.953125,3.90625,0,0,0,0
223,0.390625,0.71875,0.515625,5.859375,-1.953125,3.90625,0,0,0
224,0.40625,0.828125,0.515625,3.90625,0,0,0,0,0
225,0.328125,0.734375,0.515625,-1.953125,0,-1.953125,0,0,0
226,0.328125,0.734375,0.515625,-1.953125,0,-1.953125,0,0,0
227,0.328125,0.640625,0.421875,0,-1.953125,0,0,0,0
228,0.25,0.625,0.421875,-1.953125,-1.953125,-1.953125,0,0,0
229,0.296875,0.609375,0.421875,-9.765625,3.90625,0,0,0,0
230,0.296875,0.65625,0.453125,-7.8125,3.90625,0,0,0,0
231,0.3125,0.703125,0.609375,-7.8125,3.90625,0,0,0,0
232,0.328125,0.75,0.59375,-9.765625,3.90625,-1.953125,0,0,0
233,0.3125,0.734375,0.703125,-11.71875,3.90625,0,0,0,0
234,0.265625,0.703125,0.75,-7.8125,1.953125,-1.953125,0,0,0
235,0.28125,0.734375,0.8125,-5.859375,1.953125,0,0,0,0
236,0.28125,0.71875,0.765625,-5.859375,1.953125,0,0,0,0
237,0.3125,0.71875,0.828125,0,0,0,0,0,0
238,0.296875,0.65625,0.875,0,0,0,0,0,0
239,0.3125,0.6875,0.8125,-1.953125,0,0,0,0,0
240,0.3125,0.734375,0.8125,-1.953125,-1.953125,0,0,0,0
241,0.265625,0.71875,0.84375,0,0,0,0,0,0
242,0.28125,0.6875,0.765625,0,1.953125,0,0,0,0
243,0.265625,0.671875,0.75,0,1.953125,0,0,0,0
244,0.34375,0.796875,0.953125,3.90625,0,1.953125,0,0,0
245,0.359375,0.8125,0.90625,0,0,0,0,0,0
246,0.328125,0.75,0.890625,0,1.953125,0,0,0,0
247,0.296875,0.6875,0.75,5.859375,0,1.953125,0,0,0
248,0.328125,0.671875,0.796875,3.90625,0,3.90625,0,0,0
249,0.34375,0.765625,0.671875,3.90625,0,1.953125,0,0,0
250,0.296875,0.6875,0.734375,5.859375,0,1.953125,0,0,0
251,0.28125,0.671875,0.59375,5.859375,0,0,0,0,0
252,0.3125,0.640625,0.515625,7.8125,-1.953125,0,0,0,0
253,0.28125,0.578125,0.515625,9.765625,0,0,0,0,0
254,0.265625,0.5625,0.46875,5.859375,0,0,0,0,0
255,0.265625,0.578125,0.484375,0,1.953125,0,0,0,0
256,0.3125,0.640625,0.53125,3.90625,0,1.953125,0,0,0
257,0.34375,0.75,0.671875,3.90625,-1.953125,1.953125,0,0,0
258,0.296875,0.71875,0.453125,0,0,0,0,0,0
259,0.3125,0.703125,0.53125,0,0,0,0,0,0
260,0.359375,0.828125,0.625,0,1.953125,0,0,0,0
261,0.359375,0.765625,0.671875,1.953125,0,0,0,0,0
262,0.359375,0.765625,0.640625,1.953125,0,0,0,0,0
263,0.34375,0.734375,0.609375,0,0,1.953125,0,0,0
264,0.3125,0.71875,0.625,-1.953125,5.859375,0,0,0,0
265,0.3125,0.75,0.53125,1.953125,0,0,0,0,0
266,0.328125,0.75,0.625,0,0,1.953125,0,0,0
267,0.3125,0.75,0.578125,3.90625,-3.90625,1.953125,0,0,0
268,0.34375,0.734375,0.625,3.90625,-1.953125,1.953125,0,0,0
269,0.34375,0.765625,0.5625,0,-1.953125,0,0,0,0
270,0.34375,0.71875,0.59375,1.953125,-1.953125,0,0,0,0
271,0.375,0.75,0.59375,1.953125,-1.953125,0,0,0,0
272,0.359375,0.734375,0.578125,0,0,0,0,0,0
273,0.359375,0.734375,0.578125,0,0,0,0,0,0
274,0.328125,0.765625,0.515625,0,0,0,0,0,0
275,0.328125,0.734375,0.546875,0,0,-1.953125,0,0,0
276,0.359375,0.765625,0.578125,0,0,-1.953125,0,0,0
277,0.359375,0.765625,0.546875,0,-1.953125,0,0,0,0
278,0.34375,0.765625,0.53125,0,-1.953125,0,0,0,0
279,0.328125,0.71875,0.484375,-3.90625,0,-1.953125,0,0,0
280,0.34375,0.59375,0.53125,-3.90625,-1.953125,-3.90625,0,0,0
281,0.25,0.640625,0.453125,-3.90625,-3.90625,-3.90625,0,0,0
282,0.3125,0.75,0.546875,-1.953125,0,0,0,0,0
283,0.359375,0.734375,0.5625,-5.859375,0,0,0,0,0
284,0.34375,0.734375,0.578125,-9.765625,1.953125,0,0,0,0
285,0.3125,0.640625,0.65625,-13.671875,7.8125,-1.953125,0,0,0
286,0.296875,0.6875,0.59375,-13.671875,5.859375,-3.90625,0,0,0
287,0.3125,0.609375,0.5625,-11.71875,0,-3.90625,0,0,0
288,0.296875,0.671875,0.671875,-3.90625,1.953125,0,0,0,0
289,0.265625,0.640625,0.6875,-3.90625,0,-1.953125,0,0,0
290,0.265625,0.625,0.734375,-1.953125,0,-1.953125,0,0,0
291,0.265625,0.671875,0.78125,-1.953125,0,0,0,0,0
292,0.3125,0.703125,0.828125,-5.859375,1.953125,0,0,0,0
293,0.265625,0.6875,0.859375,-5.859375,3.90625,-3.90625,0,0,0
294,0.265625,0.59375,0.828125,0,0,-1.953125,0,0,0
295,0.34375,0.71875,0.828125,-1.953125,0,0,0,0,0
296,0.34375,0.71875,0.828125,-1.953125,0,0,0,0,0
297,0.28125,0.6875,0.859375,0,0,0,0,0,0
298,0.328125,0.71875,0.921875,0,0,0,0,0,0
299,0.34375,0.75,0.890625,0,0,0,0,0,0
300,0.265625,0.625,0.765625,-3.90625,3.90625,0,0,0,0
301,0.3125,0.6875,0.90625,1.953125,0,3.90625,0,0,0
302,0.34375,0.734375,0.984375,3.90625,0,5.859375,0,0,0
303,0.34375,0.78125,0.953125,0,1.953125,1.953125,0,0,0
304,0.3125,0.671875,0.890625,0,1.953125,0,0,0,0
305,0.28125,0.640625,0.890625,0,1.953125,1.953125,0,0,0
306,0.265625,0.609375,0.828125,1.953125,0,0,0,0,0
307,0.296875,0.671875,0.8125,7.8125,0,1.953125,0,0,0
308,0.28125,0.65625,0.78125,7.8125,0,3.90625,0,0,0
309,0.328125,0.65625,0.71875,5.859375,0,3.90625,0,0,0
310,0.28125,0.671875,0.75,5.859375,1.953125,3.90625,0,0,0
311,0.296875,0.609375,0.640625,7.8125,0,1.953125,0,0,0
312,0.28125,0.625,0.578125,9.765625,0,1.953125,0,0,0
313,0.28125,0.546875,0.546875,11.71875,-1.953125,1.953125,0,0,0
314,0.234375,0.53125,0.4375,3.90625,0,1.953125,0,0,0
315,0.296875,0.546875,0.484375,5.859375,0,3.90625,0,0,0
316,0.3125,0.671875,0.484375,5.859375,-1.953125,3.90625,0,0,0
317,0.375,0.703125,0.5625,5.859375,0,5.859375,0,0,0
318,0.390625,0.8125,0.5625,0,1.953125,0,0,0,0
319,0.359375,0.796875,0.53125,0,0,-1.953125,0,0,0
320,0.375,0.6875,0.609375,0,0,0,0,0,0
321,0.359375,0.734375,0.59375,0,0,0,0,0,0
322,0.328125,0.6875,0.53125,0,-3.90625,-1.953125,0,0,0
323,0.234375,0.578125,0.5,-3.90625,0,-3.90625,0,0,0
324,0.28125,0.578125,0.421875,-11.71875,3.90625,-1.953125,0,0,0
325,0.25,0.546875,0.46875,-9.765625,1.953125,-3.90625,0,0,0
326,0.328125,0.609375,0.625,-5.859375,1.953125,-1.953125,0,0,0
327,0.328125,0.703125,0.578125,-3.90625,0,-1.953125,0,0,0
328,0.34375,0.75,0.71875,-9.765625,1.953125,-1.953125,0,0,0
329,0.296875,0.703125,0.734375,-7.8125,0,-1.953125,0,0,0
330,0.265625,0.6875,0.734375,-3.90625,0,-1.953125,0,0,0
331,0.28125,0.703125,0.8125,-3.90625,0,-1.953125,0,0,0
332,0.296875,0.65625,0.859375,0,-1.953125,-1.953125,0,0,0
333,0.328125,0.703125,0.921875,0,0,0,0,0,0
334,0.28125,0.71875,0.9375,-1.953125,1.953125,0,0,0,0
335,0.296875,0.734375,0.890625,0,0,0,0,0,0
336,0.328125,0.6875,0.859375,-1.953125,1.953125,0,0,0,0
337,0.25,0.640625,0.8125,3.90625,0,0,0,0,0
338,0.3125,0.75,0.953125,3.90625,0,5.859375,0,0,0
339,0.34375,0.78125,0.953125,1.953125,0,1.953125,0,0,0
340,0.28125,0.71875,0.859375,0,0,0,0,0,0
341,0.3125,0.65625,0.78125,9.765625,-1.953125,5.859375,0,0,0
342,0.3125,0.734375,0.734375,7.8125,-1.953125,3.90625,0,0,0
343,0.328125,0.703125,0.75,7.8125,0,3.90625,0,0,0
344,0.34375,0.8125,0.65625,3.90625,0,3.90625,0,0,0
345,0.34375,0.6875,0.703125,5.859375,0,1.953125,0,0,0
346,0.3125,0.640625,0.578125,7.8125,0,0,0,0,0
347,0.296875,0.578125,0.53125,9.765625,0,1.953125,0,0,0
348,0.265625,0.46875,0.40625,5.859375,1.953125,0,0,0,0
349,0.25,0.609375,0.40625,3.90625,0,1.953125,0,0,0
350,0.359375,0.734375,0.515625,0,0,3.90625,0,0,0
351,0.375,0.78125,0.5625,0,0,0,0,0,0
352,0.375,0.671875,0.546875,0,0,0,0,0,0
353,0.34375,0.75,0.53125,0,-3.90625,0,0,0,0
354,0.328125,0.75,0.484375,1.953125,-9.765625,0,0,0,0
355,0.328125,0.640625,0.5,3.90625,-5.859375,0,0,0,0
356,0.3125,0.640625,0.390625,1.953125,-7.8125,-1.953125,0,0,0
357,0.296875,0.53125,0.484375,0,0,0,0,0,0
358,0.265625,0.625,0.421875,-7.8125,0,-3.90625,0,0,0
359,0.25,0.53125,0.46875,-9.765625,3.90625,-5.859375,0,0,0
360,0.375,0.71875,0.6875,-5.859375,1.953125,0,0,0,0
361,0.3125,0.71875,0.640625,-3.90625,0,-1.953125,0,0,0
362,0.328125,0.796875,0.75,-3.90625,0,0,0,0,0
363,0.34375,0.703125,0.78125,-1.953125,0,0,0,0,0
364,0.3125,0.703125,0.828125,-3.90625,1.953125,0,0,0,0
365,0.375,0.78125,0.796875,-5.859375,1.953125,-1.953125,0,0,0
366,0.34375,0.71875,0.828125,-7.8125,0,-1.953125,0,0,0
367,0.3125,0.6875,0.859375,-3.90625,0,-3.90625,0,0,0
368,0.34375,0.78125,0.875,-1.953125,-1.953125,0,0,0,0
369,0.359375,0.78125,0.875,0,0,0,0,0,0
370,0.28125,0.703125,0.859375,0,3.90625,0,0,0,0
371,0.28125,0.609375,0.8125,1.953125,0,0,0,0,0
372,0.34375,0.796875,0.9375,3.90625,0,3.90625,0,0,0
373,0.328125,0.765625,0.828125,1.953125,0,0,0,0,0
374,0.296875,0.671875,0.828125,0,0,0,0,0,0
375,0.28125,0.703125,0.703125,5.859375,-1.953125,1.953125,0,0,0
376,0.28125,0.6875,0.734375,7.8125,-1.953125,1.953125,0,0,0
377,0.3125,0.734375,0.75,1.953125,1.953125,1.953125,0,0,0
378,0.328125,0.75,0.71875,1.953125,1.953125,1.953125,0,0,0
379,0.34375,0.75,0.6875,1.953125,1.953125,1.953125,0,0,0
380,0.328125,0.71875,0.640625,3.90625,0,0,0,0,0
381,0.3125,0.671875,0.65625,3.90625,0,0,0,0,0
382,0.28125,0.609375,0.625,5.859375,1.953125,1.953125,0,0,0
383,0.25,0.609375,0.5,5.859375,-3.90625,3.90625,0,0,0
384,0.25,0.53125,0.46875,3.90625,0,0,0,0,0
385,0.25,0.5,0.453125,3.90625,3.90625,1.953125,0,0,0
386,0.296875,0.609375,0.53125,1.953125,0,3.90625,0,0,0
387,0.3125,0.71875,0.53125,1.953125,-3.90625,3.90625,0,0,0
388,0.359375,0.765625,0.5625,1.953125,-1.953125,3.90625,0,0,0
389,0.375,0.796875,0.53125,0,0,0,0,0,0
390,0.375,0.765625,0.5625,0,0,0,0,0,0
391,0.359375,0.703125,0.484375,0,-1.953125,0,0,0,0
392,0.359375,0.703125,0.484375,-1.953125,-1.953125,-1.953125,0,0,0
393,0.28125,0.578125,0.484375,-3.90625,0,-3.90625,0,0,0
394,0.296875,0.546875,0.390625,-7.8125,1.953125,-1.953125,0,0,0
395,0.265625,0.5,0.453125,-7.8125,3.90625,-1.953125,0,0,0
396,0.265625,0.59375,0.453125,-5.859375,0,0,0,0,0
397,0.296875,0.609375,0.46875,-5.859375,0,0,0,0,0
398,0.375,0.75,0.640625,-1.953125,0,0,0,0,0
399,0.359375,0.765625,0.71875,-5.859375,1.953125,-3.90625,0,0,0
400,0.375,0.765625,0.703125,-3.90625,0,-1.953125,0,0,0
401,0.3125,0.71875,0.734375,-7.8125,3.90625,-3.90625,0,0,0
402,0.328125,0.671875,0.796875,0,-1.953125,-1.953125,0,0,0
403,0.328125,0.734375,0.875,-5.859375,1.953125,0,0,0,0
404,0.359375,0.75,0.796875,-7.8125,1.953125,0,0,0,0
405,0.28125,0.703125,0.84375,0,-3.90625,0,0,0,0
406,0.3125,0.71875,0.796875,-5.859375,3.90625,-1.953125,0,0,0
407,0.28125,0.6875,0.796875,-3.90625,3.90625,-1.953125,0,0,0
408,0.25,0.671875,0.8125,0,0,0,0,0,0
409,0.28125,0.6875,0.828125,3.90625,0,0,0,0,0
410,0.328125,0.734375,0.875,7.8125,-1.953125,0,0,0,0
411,0.359375,0.765625,0.953125,3.90625,-1.953125,1.953125,0,0,0
412,0.328125,0.8125,0.9375,1.953125,1.953125,1.953125,0,0,0
413,0.3125,0.78125,0.890625,0,1.953125,0,0,0,0
414,0.28125,0.734375,0.8125,0,3.90625,0,0,0,0
415,0.265625,0.671875,0.765625,7.8125,-1.953125,1.953125,0,0,0
416,0.296875,0.6875,0.78125,3.90625,0,1.953125,0,0,0
417,0.296875,0.703125,0.734375,3.90625,1.953125,1.953125,0,0,0
418,0.25,0.703125,0.703125,5.859375,0,0,0,0,0
419,0.3125,0.65625,0.765625,3.90625,0,1.953125,0,0,0
420,0.3125,0.75,0.6875,3.90625,0,3.90625,0,0,0
421,0.3125,0.703125,0.671875,5.859375,0,1.953125,0,0,0
422,0.3125,0.734375,0.65625,5.859375,0,3.90625,0,0,0
423,0.296875,0.65625,0.609375,5.859375,0,1.953125,0,0,0
424,0.28125,0.609375,0.546875,9.765625,0,3.90625,0,0,0
425,0.296875,0.640625,0.53125,7.8125,0,3.90625,0,0,0
426,0.3125,0.609375,0.484375,5.859375,-1.953125,1.953125,0,0,0
427,0.296875,0.609375,0.46875,7.8125,0,3.90625,0,0,0
428,0.3125,0.5625,0.484375,3.90625,1.953125,1.953125,0,0,0
429,0.3125,0.625,0.421875,5.859375,0,0,0,0,0
430,0.375,0.65625,0.53125,5.859375,-1.953125,5.859375,0,0,0
431,0.453125,0.796875,0.5,0,0,0,0,0,0
432,0.40625,0.78125,0.53125,0,0,0,0,0,0
433,0.390625,0.796875,0.546875,0,0,0,0,0,0
434,0.40625,0.8125,0.53125,0,-1.953125,0,0,0,0
435,0.375,0.828125,0.515625,0,0,-1.953125,0,0,0
436,0.359375,0.796875,0.53125,0,0,-1.953125,0,0,0
437,0.265625,0.875,0.484375,0,0,-3.90625,0,0,0
438,0.28125,0.796875,0.5,0,0,-1.953125,0,0,0
439,0.265625,0.84375,0.40625,1.953125,0,-1.953125,0,0,0
440,0.265625,0.859375,0.4375,1.953125,-1.953125,-1.953125,0,0,0
441,0.28125,0.8125,0.421875,3.90625,-3.90625,-3.90625,0,0,0
442,0.265625,0.828125,0.46875,3.90625,-3.90625,-7.8125,0,0,0
443,0.25,0.84375,0.5,1.953125,-3.90625,-7.8125,0,0,0
444,0.3125,0.859375,0.515625,1.953125,-3.90625,0,0,0,0
445,0.421875,0.828125,0.578125,5.859375,-15.625,-13.671875,0,0,0
446,0.375,0.828125,0.59375,0,0,-15.625,0,0,0
447,0.359375,0.765625,0.546875,1.953125,3.90625,-17.578125,0,0,0
448,0.359375,0.90625,0.4375,0,1.953125,-17.578125,0,0,0
449,0.296875,0.84375,0.5,-3.90625,0,-19.53125,0,0,0
450,0.25,0.828125,0.53125,-1.953125,5.859375,-15.625,0,0,0
451,0.203125,0.75,0.4375,5.859375,0,-7.8125,0,0,0
452,0.203125,0.796875,0.375,5.859375,-1.953125,-3.90625,0,0,0
453,0.234375,0.921875,0.390625,-9.765625,0,0,0,0,0
454,0.21875,0.875,0.40625,-1.953125,0,-1.953125,0,0,0
455,0.21875,0.9375,0.40625,0,-1.953125,-3.90625,0,0,0
456,0.15625,0.828125,0.53125,-1.953125,1.953125,-3.90625,0,0,0
457,0.125,0.8125,0.484375,-3.90625,1.953125,0,0,0,0
458,0.109375,0.84375,0.484375,-1.953125,1.953125,0,0,0,0
459,0.109375,0.796875,0.53125,1.953125,0,1.953125,0,0,0
460,0.109375,0.84375,0.53125,3.90625,0,1.953125,0,0,0
461,0.140625,0.890625,0.53125,0,0,1.953125,0,0,0
462,0.140625,0.875,0.46875,0,0,3.90625,0,0,0
463,0.140625,0.890625,0.46875,1.953125,0,1.953125,0,0,0
464,0.15625,0.84375,0.515625,0,0,3.90625,0,0,0
465,0.171875,0.84375,0.46875,-1.953125,0,1.953125,0,0,0
466,0.203125,0.828125,0.46875,-1.953125,0,3.90625,0,0,0
467,0.21875,0.875,0.484375,-1.953125,0,1.953125,0,0,0
468,0.203125,0.84375,0.515625,-1.953125,1.953125,0,0,0,0
469,0.1875,0.828125,0.5,-1.953125,1.953125,0,0,0,0
470,0.203125,0.796875,0.5,0,0,1.953125,0,0,0
471,0.203125,0.875,0.515625,-1.953125,0,0,0,0,0
472,0.21875,0.890625,0.515625,0,0,0,0,0,0
473,0.203125,0.84375,0.53125,-1.953125,0,0,0,0,0
474,0.203125,0.8125,0.53125,-3.90625,1.953125,0,0,0,0
475,0.234375,0.890625,0.578125,-3.90625,1.953125,0,0,0,0
476,0.203125,0.859375,0.578125,-1.953125,1.953125,0,0,0,0
477,0.1875,0.828125,0.546875,-1.953125,0,0,0,0,0
478,0.1875,0.8125,0.546875,-1.953125,0,0,0,0,0